File: src/0928 18-61-2 LiP-ECDEC_02_CstC.mpt
EC-Lab ASCII FILE
Nb header lines : 64

Constant Current

Run on channel : 5 (SN 11815)
User :
Electrode connection : standard
Ewe ctrl range : min = 0.00 V, max = 5.00 V
Ewe,I filtering : 50 kHz
Safety Limits :
	Do not start on E overload
Channel : Floating
Acquisition started on : 09/28/2022 14:10:45
Saved on :
	File : 0928 18-61-2 LiP-ECDEC_02_CstC.mpr
	Directory : C:\Users\U HYeok Choi\Documents\EC-Lab\Data\cey\0928 18-61-4 LiP-ECDEC\
	Host : 192.109.209.120
Device : VSP-300 (SN 0162)
Address : 192.109.209.128
EC-Lab for windows v11.20 (software)
Internet server v11.20 (firmware)
Command interpretor v11.20 (firmware)
Electrode material :
Initial state :
Electrolyte :
Comments : Li-ion 18650 1.35 A.h
Comments : GITT
Mass of active material : 7000.000 mg
 at x = 1.000
Molecular weight of active material (at x = 0) : 90.930 g/mol
Atomic weight of intercalated ion : 6.940 g/mol
Acquisition started at : xo = 0.900
Number of e- transfered per intercalated ion : 1
for DX = 1, DQ = 1916.936 mA.h
Battery capacity : 0.000 A.h
Cable : standard
Electrode surface area : 0.001 cm2
Characteristic mass : 0.001 g
Record Power
Cycle Definition : Charge/Discharge alternance
Ns                  0                   1
tR (h:m:s)          0:00:0.0000         0:00:0.0000
dER/dt (mV/h)       2.0                 2.0
dER (mV)            0.00                0.00
dtR (s)             1.0000              1.0000
Is                  1.000               -1.000
unit Is             mA                  mA
vs.                 <None>              <None>
ts (h:m:s)          7:07:0.0000         7:07:0.0000
EM (V)              1.000               0.000
dQM                 7.117               7.117
unit dQM            mA.h                mA.h
record              <Ewe>               <Ewe>
dEs (mV)            0.00                0.00
dts (s)             0.1000              0.1000
E range min (V)     0.000               0.000
E range max (V)     5.000               5.000
I Range             10 mA               10 mA
Bandwidth           8                   8
goto Ns'            0                   0
nc cycles           0                   3

mode	ox/red	error	control changes	Ns changes	counter inc.	time/s	control/mA	<Ewe>/V	I/mA	dq/mA.h	dQ/mA.h	(Q-Qo)/mA.h	Q charge/discharge/mA.h	half cycle	Energy charge/W.h	Energy discharge/W.h	Capacitance charge/uF	Capacitance discharge/uF	x	Q discharge/mA.h	Q charge/mA.h	Capacity/mA.h	Efficiency/%	cycle number	P/W
1	1	0	1	0	0	159.997	1	0.0623005	1.00017	2.74852e-05	2.74852e-05	2.74852e-05	2.74852e-05	0	1.71234e-09	0.000000000000000E+000	0.000000000000000E+000	0.000000000000000E+000	0.9	0.000000000000000E+000	2.74852e-05	2.74852e-05	0.0000000E+000	0.000000000000000E+000	6.23112e-05
1	1	0	1	0	0	160.197	1	0.115696	1.00014	2.77828e-05	8.30507e-05	8.30507e-05	8.30507e-05	0	7.43708e-09	0.000000000000000E+000	5599.38	0.000000000000000E+000	0.9	0.000000000000000E+000	8.30507e-05	8.30507e-05	0.0000000E+000	0.000000000000000E+000	0.000115713
1	1	0	1	0	0	160.397	1	0.164017	1.00019	2.77827e-05	0.000138616	0.000138616	0.000138616	0	1.58879e-08	0.000000000000000E+000	4905.99	0.000000000000000E+000	0.9	0.000000000000000E+000	0.000138616	0.000138616	0.0000000E+000	0.000000000000000E+000	0.000164047
1	1	0	1	0	0	160.597	1	0.210435	1.00017	2.77826e-05	0.000194181	0.000194181	0.000194181	0	2.6941e-08	0.000000000000000E+000	4719.03	0.000000000000000E+000	0.9	0.000000000000000E+000	0.000194181	0.000194181	0.0000000E+000	0.000000000000000E+000	0.000210471
1	1	0	1	0	0	160.797	1	0.255551	1.00019	2.77825e-05	0.000249746	0.000249746	0.000249746	0	4.05175e-08	0.000000000000000E+000	4652.44	0.000000000000000E+000	0.9	0.000000000000000E+000	0.000249746	0.000249746	0.0000000E+000	0.000000000000000E+000	0.000255599
1	1	0	1	0	0	160.997	1	0.299838	1.00018	2.77824e-05	0.000305311	0.000305311	0.000305311	0	5.65656e-08	0.000000000000000E+000	4627.15	0.000000000000000E+000	0.9	0.000000000000000E+000	0.000305311	0.000305311	0.0000000E+000	0.000000000000000E+000	0.000299892
1	1	0	1	0	0	161.197	1	0.343475	1.00018	2.77823e-05	0.000360876	0.000360876	0.000360876	0	7.50463e-08	0.000000000000000E+000	4620.45	0.000000000000000E+000	0.9	0.000000000000000E+000	0.000360876	0.000360876	0.0000000E+000	0.000000000000000E+000	0.000343535
1	1	0	1	0	0	161.397	1	0.386599	1.00015	2.77823e-05	0.000416441	0.000416441	0.000416441	0	9.593e-08	0.000000000000000E+000	4622.85	0.000000000000000E+000	0.9	0.000000000000000E+000	0.000416441	0.000416441	0.0000000E+000	0.000000000000000E+000	0.000386658
1	1	0	1	0	0	161.597	1	0.42934	1.00016	2.77823e-05	0.000472005	0.000472005	0.000472005	0	1.19193e-07	0.000000000000000E+000	4629.53	0.000000000000000E+000	0.9	0.000000000000000E+000	0.000472005	0.000472005	0.0000000E+000	0.000000000000000E+000	0.000429407
1	1	0	1	0	0	161.797	1	0.471811	1.00016	2.77821e-05	0.000527569	0.000527569	0.000527569	0	1.4482e-07	0.000000000000000E+000	4637.86	0.000000000000000E+000	0.9	0.000000000000000E+000	0.000527569	0.000527569	0.0000000E+000	0.000000000000000E+000	0.000471888
1	1	0	1	0	0	161.997	1	0.514067	1.00018	2.77821e-05	0.000583134	0.000583134	0.000583134	0	1.72797e-07	0.000000000000000E+000	4646.83	0.000000000000000E+000	0.9	0.000000000000000E+000	0.000583134	0.000583134	0.0000000E+000	0.000000000000000E+000	0.000514161
1	1	0	1	0	0	162.197	1	0.556155	1.00012	2.77822e-05	0.000638698	0.000638698	0.000638698	0	2.03116e-07	0.000000000000000E+000	4655.85	0.000000000000000E+000	0.9	0.000000000000000E+000	0.000638698	0.000638698	0.0000000E+000	0.000000000000000E+000	0.000556221
1	1	0	1	0	0	162.397	1	0.598162	1.00016	2.77821e-05	0.000694262	0.000694262	0.000694262	0	2.35768e-07	0.000000000000000E+000	4664.16	0.000000000000000E+000	0.9	0.000000000000000E+000	0.000694262	0.000694262	0.0000000E+000	0.000000000000000E+000	0.00059826
1	1	0	1	0	0	162.597	1	0.640086	1.00014	2.77822e-05	0.000749827	0.000749827	0.000749827	0	2.70752e-07	0.000000000000000E+000	4671.94	0.000000000000000E+000	0.9	0.000000000000000E+000	0.000749827	0.000749827	0.0000000E+000	0.000000000000000E+000	0.000640176
1	1	0	1	0	0	162.797	1	0.681982	1.0002	2.77822e-05	0.000805391	0.000805391	0.000805391	0	3.08064e-07	0.000000000000000E+000	4678.87	0.000000000000000E+000	0.9	0.000000000000000E+000	0.000805391	0.000805391	0.0000000E+000	0.000000000000000E+000	0.000682117
1	1	0	1	0	0	162.997	1	0.723853	1.00017	2.77822e-05	0.000860955	0.000860955	0.000860955	0	3.47703e-07	0.000000000000000E+000	4685.1	0.000000000000000E+000	0.9	0.000000000000000E+000	0.000860955	0.000860955	0.0000000E+000	0.000000000000000E+000	0.000723977
1	1	0	1	0	0	163.197	1	0.765814	1.00013	2.77822e-05	0.00091652	0.00091652	0.00091652	0	3.89672e-07	0.000000000000000E+000	4689.99	0.000000000000000E+000	0.899999	0.000000000000000E+000	0.00091652	0.00091652	0.0000000E+000	0.000000000000000E+000	0.00076591
1	1	0	1	0	0	163.397	1	0.807881	1.00017	2.77822e-05	0.000972084	0.000972084	0.000972084	0	4.33977e-07	0.000000000000000E+000	4693.66	0.000000000000000E+000	0.899999	0.000000000000000E+000	0.000972084	0.000972084	0.0000000E+000	0.000000000000000E+000	0.000808016
1	1	0	1	0	0	163.597	1	0.850055	1.00019	2.77822e-05	0.00102765	0.00102765	0.00102765	0	4.80623e-07	0.000000000000000E+000	4696.3	0.000000000000000E+000	0.899999	0.000000000000000E+000	0.00102765	0.00102765	0.0000000E+000	0.000000000000000E+000	0.000850214
1	1	0	1	0	0	163.797	1	0.892335	1.00019	2.77822e-05	0.00108321	0.00108321	0.00108321	0	5.29617e-07	0.000000000000000E+000	4698.08	0.000000000000000E+000	0.899999	0.000000000000000E+000	0.00108321	0.00108321	0.0000000E+000	0.000000000000000E+000	0.000892502
1	1	0	1	0	0	163.997	1	0.934636	1.00019	2.77821e-05	0.00113878	0.00113878	0.00113878	0	5.80962e-07	0.000000000000000E+000	4699.56	0.000000000000000E+000	0.899999	0.000000000000000E+000	0.00113878	0.00113878	0.0000000E+000	0.000000000000000E+000	0.000934818
1	1	0	1	0	0	164.197	1	0.976711	1.00014	2.7782e-05	0.00119434	0.00119434	0.00119434	0	6.34649e-07	0.000000000000000E+000	4702.08	0.000000000000000E+000	0.899999	0.000000000000000E+000	0.00119434	0.00119434	0.0000000E+000	0.000000000000000E+000	0.000976852
1	0	0	0	1	0	164.259	-1	0.992443	-0.92793	4.01387e-09	4.01387e-09	0.00121157	4.01387e-09	1	6.51768e-07	0.000000000000000E+000	4683.32	0.000000000000000E+000	0.899999	0.000000000000000E+000	4.01387e-09	4.01387e-09	0.0000000E+000	0.000000000000000E+000	-0.000920917
1	0	0	0	0	0	164.459	-1	0.853727	-0.999953	-2.77753e-05	-5.55464e-05	0.00115602	-5.55464e-05	1	6.51768e-07	-4.85885e-08	4683.32	4773.78	0.899999	5.55464e-05	0.000000000000000E+000	5.55464e-05	0.0000000E+000	0.000000000000000E+000	-0.000853688
1	0	0	0	0	0	164.659	-1	0.783945	-0.99993	-2.77755e-05	-0.000111097	0.00110047	-0.000111097	1	6.51768e-07	-9.30738e-08	4683.32	3581.52	0.899999	0.000111097	0.000000000000000E+000	0.000111097	0.0000000E+000	0.000000000000000E+000	-0.00078389
1	0	0	0	0	0	164.859	-1	0.721646	-0.999957	-2.77756e-05	-0.000166648	0.00104492	-0.000166648	1	6.51768e-07	-1.34007e-07	4683.32	3448.52	0.899999	0.000166648	0.000000000000000E+000	0.000166648	0.0000000E+000	0.000000000000000E+000	-0.000721615
1	0	0	0	0	0	165.059	-1	0.664448	-0.999919	-2.77756e-05	-0.000222199	0.000989367	-0.000222199	1	6.51768e-07	-1.71697e-07	4683.32	3460.34	0.899999	0.000222199	0.000000000000000E+000	0.000222199	0.0000000E+000	0.000000000000000E+000	-0.000664394
1	0	0	0	0	0	165.259	-1	0.610982	-0.999946	-2.77756e-05	-0.00027775	0.000933816	-0.00027775	1	6.51768e-07	-2.06369e-07	4683.32	3512.95	0.899999	0.00027775	0.000000000000000E+000	0.00027775	0.0000000E+000	0.000000000000000E+000	-0.000610949
1	0	0	0	0	0	165.459	-1	0.560463	-0.999946	-2.77756e-05	-0.000333302	0.000878264	-0.000333302	1	6.51768e-07	-2.38196e-07	4683.32	3580.12	0.9	0.000333302	0.000000000000000E+000	0.000333302	0.0000000E+000	0.000000000000000E+000	-0.000560432
1	0	0	0	0	0	165.659	-1	0.512339	-0.999885	-2.77757e-05	-0.000388853	0.000822713	-0.000388853	1	6.51768e-07	-2.67318e-07	4683.32	3652.38	0.9	0.000388853	0.000000000000000E+000	0.000388853	0.0000000E+000	0.000000000000000E+000	-0.00051228
1	0	0	0	0	0	165.859	-1	0.466105	-0.999915	-2.77755e-05	-0.000444404	0.000767162	-0.000444404	1	6.51768e-07	-2.93846e-07	4683.32	3724.84	0.9	0.000444404	0.000000000000000E+000	0.000444404	0.0000000E+000	0.000000000000000E+000	-0.000466066
1	0	0	0	0	0	166.059	-1	0.421494	-0.9999	-2.77754e-05	-0.000499955	0.000711611	-0.000499955	1	6.51768e-07	-3.17875e-07	4683.32	3796.15	0.9	0.000499955	0.000000000000000E+000	0.000499955	0.0000000E+000	0.000000000000000E+000	-0.000421452
1	0	0	0	0	0	166.259	-1	0.378264	-0.999904	-2.77753e-05	-0.000555505	0.000656061	-0.000555505	1	6.51768e-07	-3.39484e-07	4683.32	3865.49	0.9	0.000555505	0.000000000000000E+000	0.000555505	0.0000000E+000	0.000000000000000E+000	-0.000378227
1	0	0	0	0	0	166.459	-1	0.336235	-0.999885	-2.77753e-05	-0.000611056	0.00060051	-0.000611056	1	6.51768e-07	-3.58742e-07	4683.32	3932.57	0.9	0.000611056	0.000000000000000E+000	0.000611056	0.0000000E+000	0.000000000000000E+000	-0.000336196
1	0	0	0	0	0	166.659	-1	0.295287	-0.999938	-2.77752e-05	-0.000666606	0.00054496	-0.000666606	1	6.51768e-07	-3.7571e-07	4683.32	3997.45	0.9	0.000666606	0.000000000000000E+000	0.000666606	0.0000000E+000	0.000000000000000E+000	-0.000295269
1	0	0	0	0	0	166.859	-1	0.255346	-0.999919	-2.77752e-05	-0.000722157	0.000489409	-0.000722157	1	6.51768e-07	-3.90446e-07	4683.32	4060.42	0.9	0.000722157	0.000000000000000E+000	0.000722157	0.0000000E+000	0.000000000000000E+000	-0.000255325
1	0	0	0	0	0	167.059	-1	0.216337	-0.999908	-2.77754e-05	-0.000777707	0.000433859	-0.000777707	1	6.51768e-07	-4.03002e-07	4683.32	4121.65	0.9	0.000777707	0.000000000000000E+000	0.000777707	0.0000000E+000	0.000000000000000E+000	-0.000216317
1	0	0	0	0	0	167.259	-1	0.178178	-0.999911	-2.77751e-05	-0.000833258	0.000378308	-0.000833258	1	6.51768e-07	-4.13427e-07	4683.32	4181.17	0.9	0.000833258	0.000000000000000E+000	0.000833258	0.0000000E+000	0.000000000000000E+000	-0.000178163
1	0	0	0	0	0	167.459	-1	0.140878	-0.999904	-2.77751e-05	-0.000888808	0.000322758	-0.000888808	1	6.51768e-07	-4.21769e-07	4683.32	4239.5	0.9	0.000888808	0.000000000000000E+000	0.000888808	0.0000000E+000	0.000000000000000E+000	-0.000140864
1	0	0	0	0	0	167.659	-1	0.10434	-0.9999	-2.77752e-05	-0.000944359	0.000267208	-0.000944359	1	6.51768e-07	-4.28069e-07	4683.32	4296.47	0.9	0.000944359	0.000000000000000E+000	0.000944359	0.0000000E+000	0.000000000000000E+000	-0.00010433
1	0	0	0	0	0	167.859	-1	0.0685735	-0.9999	-2.77752e-05	-0.000999909	0.000211657	-0.000999909	1	6.51768e-07	-4.32373e-07	4683.32	4352.46	0.9	0.000999909	0.000000000000000E+000	0.000999909	0.0000000E+000	0.000000000000000E+000	-6.85666e-05
1	0	0	0	0	0	168.059	-1	0.0335349	-0.9999	-2.77752e-05	-0.00105546	0.000156107	-0.00105546	1	6.51768e-07	-4.3472e-07	4683.32	4407.54	0.9	0.00105546	0.000000000000000E+000	0.00105546	0.0000000E+000	0.000000000000000E+000	-3.35316e-05
1	0	0	0	0	0	168.204	-1	0.00382315	-0.999892	-1.25544e-05	-0.00109579	0.000115777	-0.00109579	1	6.51768e-07	-4.3522e-07	4683.32	4423.5	0.9	0.00109579	0.000000000000000E+000	0.00109579	90.444	0.000000000000000E+000	-3.82273e-06
1	1	0	1	0	1	168.305	1	0.0885032	1.00014	2.77826e-05	2.77786e-05	0.000143556	2.77786e-05	2	2.45885e-09	-3.31868e-14	0.000000000000000E+000	0.000000000000000E+000	0.9	0.000000000000000E+000	2.77786e-05	2.77786e-05	0.0000000E+000	1	8.85153e-05
1	1	0	1	0	1	168.505	1	0.147964	1.00018	2.77826e-05	8.33439e-05	0.000199121	8.33439e-05	2	9.90283e-09	-3.31868e-14	5046.26	0.000000000000000E+000	0.9	0.000000000000000E+000	8.33439e-05	8.33439e-05	0.0000000E+000	1	0.000147991
1	1	0	1	0	1	168.705	1	0.200615	1.00018	2.77825e-05	0.000138909	0.000254686	0.000138909	2	2.03306e-08	-3.31868e-14	4460.59	0.000000000000000E+000	0.9	0.000000000000000E+000	0.000138909	0.000138909	0.0000000E+000	1	0.000200651
1	1	0	1	0	1	168.905	1	0.250574	1.00014	2.77824e-05	0.000194474	0.000310251	0.000194474	2	3.35667e-08	-3.31868e-14	4319.83	0.000000000000000E+000	0.9	0.000000000000000E+000	0.000194474	0.000194474	0.0000000E+000	1	0.00025061
1	1	0	1	0	1	169.105	1	0.298872	1.00013	2.77823e-05	0.000250038	0.000365816	0.000250038	2	4.95074e-08	-3.31868e-14	4278.93	0.000000000000000E+000	0.9	0.000000000000000E+000	0.000250038	0.000250038	0.0000000E+000	1	0.000298909
1	1	0	1	0	1	169.305	1	0.345931	1.00019	2.77824e-05	0.000305603	0.00042138	0.000305603	2	6.80786e-08	-3.31868e-14	4273.77	0.000000000000000E+000	0.9	0.000000000000000E+000	0.000305603	0.000305603	0.0000000E+000	1	0.000345995
1	1	0	1	0	1	169.505	1	0.392085	1.0002	2.77823e-05	0.000361168	0.000476945	0.000361168	2	8.92266e-08	-3.31868e-14	4282.92	0.000000000000000E+000	0.9	0.000000000000000E+000	0.000361168	0.000361168	0.0000000E+000	1	0.000392163
1	1	0	1	0	1	169.705	1	0.437545	1.00016	2.77823e-05	0.000416732	0.000532509	0.000416732	2	1.12909e-07	-3.31868e-14	4298.2	0.000000000000000E+000	0.9	0.000000000000000E+000	0.000416732	0.000416732	0.0000000E+000	1	0.000437615
1	1	0	1	0	1	169.905	1	0.482473	1.00017	2.77823e-05	0.000472297	0.000588074	0.000472297	2	1.39095e-07	-3.31868e-14	4315.77	0.000000000000000E+000	0.9	0.000000000000000E+000	0.000472297	0.000472297	0.0000000E+000	1	0.000482554
1	1	0	1	0	1	170.105	1	0.527009	1.00018	2.77823e-05	0.000527862	0.000643639	0.000527862	2	1.67761e-07	-3.31868e-14	4333.62	0.000000000000000E+000	0.9	0.000000000000000E+000	0.000527862	0.000527862	0.0000000E+000	1	0.000527106
1	1	0	1	0	1	170.305	1	0.571212	1.00014	2.77821e-05	0.000583426	0.000699203	0.000583426	2	1.98887e-07	-3.31868e-14	4351.17	0.000000000000000E+000	0.9	0.000000000000000E+000	0.000583426	0.000583426	0.0000000E+000	1	0.000571294
1	1	0	1	0	1	170.505	1	0.615204	1.00011	2.77821e-05	0.00063899	0.000754767	0.00063899	2	2.32459e-07	-3.31868e-14	4367.53	0.000000000000000E+000	0.9	0.000000000000000E+000	0.00063899	0.00063899	0.0000000E+000	1	0.000615272
1	1	0	1	0	1	170.705	1	0.659053	1.00015	2.77822e-05	0.000694555	0.000810332	0.000694555	2	2.6847e-07	-3.31868e-14	4382.46	0.000000000000000E+000	0.9	0.000000000000000E+000	0.000694555	0.000694555	0.0000000E+000	1	0.000659154
1	1	0	1	0	1	170.905	1	0.702788	1.00016	2.77822e-05	0.000750119	0.000865896	0.000750119	2	3.06913e-07	-3.31868e-14	4396.08	0.000000000000000E+000	0.9	0.000000000000000E+000	0.000750119	0.000750119	0.0000000E+000	1	0.000702903
1	1	0	1	0	1	171.105	1	0.746476	1.00014	2.77821e-05	0.000805683	0.00092146	0.000805683	2	3.47783e-07	-3.31868e-14	4408.2	0.000000000000000E+000	0.899999	0.000000000000000E+000	0.000805683	0.000805683	0.0000000E+000	1	0.000746578
1	1	0	1	0	1	171.305	1	0.790202	1.0002	2.77821e-05	0.000861247	0.000977024	0.000861247	2	3.91082e-07	-3.31868e-14	4418.57	0.000000000000000E+000	0.899999	0.000000000000000E+000	0.000861247	0.000861247	0.0000000E+000	1	0.000790362
1	1	0	1	0	1	171.505	1	0.834024	1.00018	2.77821e-05	0.000916811	0.00103259	0.000916811	2	4.36815e-07	-3.31868e-14	4427.15	0.000000000000000E+000	0.899999	0.000000000000000E+000	0.000916811	0.000916811	0.0000000E+000	1	0.000834177
1	1	0	1	0	1	171.705	1	0.877864	1.00014	2.77819e-05	0.000972375	0.00108815	0.000972375	2	4.84983e-07	-3.31868e-14	4434.68	0.000000000000000E+000	0.899999	0.000000000000000E+000	0.000972375	0.000972375	0.0000000E+000	1	0.000877988
1	1	0	1	0	1	171.905	1	0.921767	1.00013	2.77819e-05	0.00102794	0.00114372	0.00102794	2	5.35591e-07	-3.31868e-14	4441.09	0.000000000000000E+000	0.899999	0.000000000000000E+000	0.00102794	0.00102794	0.0000000E+000	1	0.00092189
1	1	0	1	0	1	172.105	1	0.965439	1.00017	2.77819e-05	0.0010835	0.00119928	0.0010835	2	5.88629e-07	-3.31868e-14	4448.02	0.000000000000000E+000	0.899999	0.000000000000000E+000	0.0010835	0.0010835	0.0000000E+000	1	0.000965601
1	1	0	1	0	1	172.215	1	0.998987	1.00013	2.8893e-06	0.00111417	0.00122995	0.00111417	2	6.18939e-07	-3.31868e-14	4405.4	0.000000000000000E+000	0.899999	0.000000000000000E+000	0.00111417	0.00111417	0.0000000E+000	1	0.000999116
1	0	0	0	0	1	172.315	-1	0.895602	-0.999984	-2.77754e-05	-2.77714e-05	0.00120218	-2.77714e-05	3	6.18943e-07	-2.48757e-08	4405.41	0.000000000000000E+000	0.899999	2.77714e-05	0.000000000000000E+000	2.77714e-05	0.0000000E+000	1	-0.000895587
1	0	0	0	0	1	172.515	-1	0.818202	-0.999892	-2.77755e-05	-8.33224e-05	0.00114663	-8.33224e-05	3	6.18943e-07	-7.13218e-08	4405.41	3875.87	0.899999	8.33224e-05	0.000000000000000E+000	8.33224e-05	0.0000000E+000	1	-0.000818114
1	0	0	0	0	1	172.715	-1	0.753101	-0.999877	-2.77754e-05	-0.000138873	0.00109108	-0.000138873	3	6.18943e-07	-1.14036e-07	4405.41	3508.57	0.899999	0.000138873	0.000000000000000E+000	0.000138873	0.0000000E+000	1	-0.000753009
1	0	0	0	0	1	172.915	-1	0.693983	-0.999927	-2.77754e-05	-0.000194424	0.00103553	-0.000194424	3	6.18943e-07	-1.53391e-07	4405.41	3471.68	0.899999	0.000194424	0.000000000000000E+000	0.000194424	0.0000000E+000	1	-0.000693932
1	0	0	0	0	1	173.115	-1	0.639117	-0.999923	-2.77753e-05	-0.000249975	0.000979977	-0.000249975	3	6.18943e-07	-1.89644e-07	4405.41	3508.74	0.899999	0.000249975	0.000000000000000E+000	0.000249975	0.0000000E+000	1	-0.000639068
1	0	0	0	0	1	173.315	-1	0.587542	-0.999961	-2.77753e-05	-0.000305525	0.000924426	-0.000305525	3	6.18943e-07	-2.22988e-07	4405.41	3570.48	0.899999	0.000305525	0.000000000000000E+000	0.000305525	0.0000000E+000	1	-0.000587519
1	0	0	0	0	1	173.515	-1	0.538553	-0.999946	-2.77754e-05	-0.000361076	0.000868875	-0.000361076	3	6.18943e-07	-2.53577e-07	4405.41	3640.69	0.9	0.000361076	0.000000000000000E+000	0.000361076	0.0000000E+000	1	-0.000538524
1	0	0	0	0	1	173.715	-1	0.491667	-0.999923	-2.77754e-05	-0.000416627	0.000813324	-0.000416627	3	6.18943e-07	-2.81534e-07	4405.41	3713.19	0.9	0.000416627	0.000000000000000E+000	0.000416627	0.0000000E+000	1	-0.000491629
1	0	0	0	0	1	173.915	-1	0.446503	-0.999927	-2.77754e-05	-0.000472177	0.000757774	-0.000472177	3	6.18943e-07	-3.06959e-07	4405.41	3785.07	0.9	0.000472177	0.000000000000000E+000	0.000472177	0.0000000E+000	1	-0.00044647
1	0	0	0	0	1	174.115	-1	0.402788	-0.99993	-2.77754e-05	-0.000527728	0.000702223	-0.000527728	3	6.18943e-07	-3.29937e-07	4405.41	3855.11	0.9	0.000527728	0.000000000000000E+000	0.000527728	0.0000000E+000	1	-0.00040276
1	0	0	0	0	1	174.315	-1	0.360369	-0.999915	-2.77754e-05	-0.000583279	0.000646672	-0.000583279	3	6.18943e-07	-3.50541e-07	4405.41	3923.22	0.9	0.000583279	0.000000000000000E+000	0.000583279	0.0000000E+000	1	-0.000360338
1	0	0	0	0	1	174.515	-1	0.319053	-0.999953	-2.77755e-05	-0.00063883	0.000591121	-0.00063883	3	6.18943e-07	-3.68835e-07	4405.41	3988.94	0.9	0.00063883	0.000000000000000E+000	0.00063883	0.0000000E+000	1	-0.000319038
1	0	0	0	0	1	174.715	-1	0.278746	-0.999915	-2.77754e-05	-0.000694381	0.00053557	-0.000694381	3	6.18943e-07	-3.84876e-07	4405.41	4052.49	0.9	0.000694381	0.000000000000000E+000	0.000694381	0.0000000E+000	1	-0.000278722
1	0	0	0	0	1	174.915	-1	0.239391	-0.9999	-2.77754e-05	-0.000749932	0.00048002	-0.000749932	3	6.18943e-07	-3.98717e-07	4405.41	4114.2	0.9	0.000749932	0.000000000000000E+000	0.000749932	0.0000000E+000	1	-0.000239367
1	0	0	0	0	1	175.115	-1	0.200951	-0.999908	-2.77754e-05	-0.000805483	0.000424469	-0.000805483	3	6.18943e-07	-4.10411e-07	4405.41	4174.42	0.9	0.000805483	0.000000000000000E+000	0.000805483	0.0000000E+000	1	-0.000200933
1	0	0	0	0	1	175.315	-1	0.163322	-0.999869	-2.77753e-05	-0.000861033	0.000368918	-0.000861033	3	6.18943e-07	-4.20003e-07	4405.41	4233.01	0.9	0.000861033	0.000000000000000E+000	0.000861033	0.0000000E+000	1	-0.0001633
1	0	0	0	0	1	175.515	-1	0.126498	-0.999892	-2.77752e-05	-0.000916583	0.000313368	-0.000916583	3	6.18943e-07	-4.27539e-07	4405.41	4290.36	0.9	0.000916583	0.000000000000000E+000	0.000916583	0.0000000E+000	1	-0.000126484
1	0	0	0	0	1	175.715	-1	0.0904365	-0.999862	-2.77751e-05	-0.000972134	0.000257818	-0.000972134	3	6.18943e-07	-4.33061e-07	4405.41	4346.57	0.9	0.000972134	0.000000000000000E+000	0.000972134	0.0000000E+000	1	-9.0424e-05
1	0	0	0	0	1	175.915	-1	0.0551151	-0.999888	-2.77752e-05	-0.00102768	0.000202267	-0.00102768	3	6.18943e-07	-4.36611e-07	4405.41	4401.85	0.9	0.00102768	0.000000000000000E+000	0.00102768	0.0000000E+000	1	-5.5109e-05
1	0	0	0	0	1	176.115	-1	0.0205083	-0.999904	-2.77752e-05	-0.00108323	0.000146717	-0.00108323	3	6.18943e-07	-4.38228e-07	4405.41	4456.29	0.9	0.00108323	0.000000000000000E+000	0.00108323	0.0000000E+000	1	-2.05063e-05
1	1	0	1	1	0	176.187	1	0.00816681	0.928067	-3.99154e-09	-3.99154e-09	0.000127048	-3.99154e-09	4	0.000000000000000E+000	-3.25981e-14	0.000000000000000E+000	0.000000000000000E+000	0.9	3.99154e-09	0.000000000000000E+000	3.99154e-09	0.0000000E+000	2	7.57935e-06
1	1	0	1	0	0	176.387	1	0.120044	1.00015	2.77827e-05	5.55612e-05	0.000182613	5.55612e-05	4	5.79426e-09	-3.25981e-14	6344.29	0.000000000000000E+000	0.9	0.000000000000000E+000	5.55612e-05	5.55612e-05	0.0000000E+000	2	0.000120062
1	1	0	1	0	0	176.587	1	0.174924	1.0002	2.77826e-05	0.000111126	0.000238178	0.000111126	4	1.4769e-08	-3.25981e-14	4629.89	0.000000000000000E+000	0.9	0.000000000000000E+000	0.000111126	0.000111126	0.0000000E+000	2	0.000174959
1	1	0	1	0	0	176.787	1	0.226189	1.0002	2.77827e-05	0.000166692	0.000293744	0.000166692	4	2.66343e-08	-3.25981e-14	4358.83	0.000000000000000E+000	0.9	0.000000000000000E+000	0.000166692	0.000166692	0.0000000E+000	2	0.000226234
1	1	0	1	0	0	176.987	1	0.275368	1.00018	2.77826e-05	0.000222257	0.000349309	0.000222257	4	4.12578e-08	-3.25981e-14	4282.16	0.000000000000000E+000	0.9	0.000000000000000E+000	0.000222257	0.000222257	0.0000000E+000	2	0.000275417
1	1	0	1	0	0	177.187	1	0.323086	1.00017	2.77824e-05	0.000277822	0.000404874	0.000277822	4	5.85514e-08	-3.25981e-14	4263.81	0.000000000000000E+000	0.9	0.000000000000000E+000	0.000277822	0.000277822	0.0000000E+000	2	0.000323142
1	1	0	1	0	0	177.387	1	0.369814	1.00014	2.77824e-05	0.000333387	0.000460439	0.000333387	4	7.84536e-08	-3.25981e-14	4266.63	0.000000000000000E+000	0.9	0.000000000000000E+000	0.000333387	0.000333387	0.0000000E+000	2	0.000369865
1	1	0	1	0	0	177.587	1	0.415699	1.00019	2.77823e-05	0.000388951	0.000516003	0.000388951	4	1.00917e-07	-3.25981e-14	4279.65	0.000000000000000E+000	0.9	0.000000000000000E+000	0.000388951	0.000388951	0.0000000E+000	2	0.00041578
1	1	0	1	0	0	177.787	1	0.461028	1.00014	2.77823e-05	0.000444516	0.000571568	0.000444516	4	1.25906e-07	-3.25981e-14	4295.87	0.000000000000000E+000	0.9	0.000000000000000E+000	0.000444516	0.000444516	0.0000000E+000	2	0.000461094
1	1	0	1	0	0	177.987	1	0.505898	1.00022	2.77821e-05	0.00050008	0.000627132	0.00050008	4	1.53394e-07	-3.25981e-14	4313.3	0.000000000000000E+000	0.9	0.000000000000000E+000	0.00050008	0.00050008	0.0000000E+000	2	0.00050601
1	1	0	1	0	0	178.187	1	0.55037	1.0001	2.77823e-05	0.000555645	0.000682697	0.000555645	4	1.83358e-07	-3.25981e-14	4331.08	0.000000000000000E+000	0.9	0.000000000000000E+000	0.000555645	0.000555645	0.0000000E+000	2	0.000550427
1	1	0	1	0	0	178.387	1	0.594625	1.00016	2.77823e-05	0.000611209	0.000738261	0.000611209	4	2.15784e-07	-3.25981e-14	4347.59	0.000000000000000E+000	0.9	0.000000000000000E+000	0.000611209	0.000611209	0.0000000E+000	2	0.000594723
1	1	0	1	0	0	178.587	1	0.638696	1.00015	2.77821e-05	0.000666774	0.000793826	0.000666774	4	2.50661e-07	-3.25981e-14	4362.91	0.000000000000000E+000	0.9	0.000000000000000E+000	0.000666774	0.000666774	0.0000000E+000	2	0.000638794
1	1	0	1	0	0	178.787	1	0.682639	1.00016	2.77821e-05	0.000722338	0.00084939	0.000722338	4	2.87982e-07	-3.25981e-14	4376.91	0.000000000000000E+000	0.9	0.000000000000000E+000	0.000722338	0.000722338	0.0000000E+000	2	0.00068275
1	1	0	1	0	0	178.987	1	0.726551	1.00017	2.77821e-05	0.000777902	0.000904954	0.000777902	4	3.27742e-07	-3.25981e-14	4389.18	0.000000000000000E+000	0.9	0.000000000000000E+000	0.000777902	0.000777902	0.0000000E+000	2	0.000726676
1	1	0	1	0	0	179.187	1	0.770468	1.00013	2.77821e-05	0.000833466	0.000960518	0.000833466	4	3.69942e-07	-3.25981e-14	4399.84	0.000000000000000E+000	0.899999	0.000000000000000E+000	0.000833466	0.000833466	0.0000000E+000	2	0.000770568
1	1	0	1	0	0	179.387	1	0.814443	1.00016	2.77819e-05	0.00088903	0.00101608	0.00088903	4	4.14585e-07	-3.25981e-14	4408.86	0.000000000000000E+000	0.899999	0.000000000000000E+000	0.00088903	0.00088903	0.0000000E+000	2	0.000814573
1	1	0	1	0	0	179.587	1	0.858498	1.00014	2.7782e-05	0.000944594	0.00107165	0.000944594	4	4.61674e-07	-3.25981e-14	4416.39	0.000000000000000E+000	0.899999	0.000000000000000E+000	0.000944594	0.000944594	0.0000000E+000	2	0.000858616
1	1	0	1	0	0	179.787	1	0.902653	1.00014	2.7782e-05	0.00100016	0.00112721	0.00100016	4	5.11215e-07	-3.25981e-14	4422.56	0.000000000000000E+000	0.899999	0.000000000000000E+000	0.00100016	0.00100016	0.0000000E+000	2	0.000902777
1	1	0	1	0	0	179.987	1	0.946685	1.00014	2.77819e-05	0.00105572	0.00118277	0.00105572	4	5.63206e-07	-3.25981e-14	4428.73	0.000000000000000E+000	0.899999	0.000000000000000E+000	0.00105572	0.00105572	0.0000000E+000	2	0.000946819
1	1	0	1	0	0	180.181	1	0.989794	1.00013	2.63374e-05	0.00110984	0.00123689	0.00110984	4	6.16184e-07	-3.25981e-14	4433.08	0.000000000000000E+000	0.899999	0.000000000000000E+000	0.00110984	0.00110984	0.0000000E+000	2	0.000989926
1	0	0	0	0	0	180.282	-1	0.895478	-0.999927	-2.77752e-05	-2.77712e-05	0.00120912	-2.77712e-05	5	6.16188e-07	-2.48721e-08	4433.09	0.000000000000000E+000	0.899999	2.77712e-05	0.000000000000000E+000	2.77712e-05	0.0000000E+000	2	-0.000895412
1	0	0	0	0	0	180.482	-1	0.818176	-0.999923	-2.77754e-05	-8.3322e-05	0.00115357	-8.3322e-05	5	6.16188e-07	-7.13153e-08	4433.09	3880.76	0.899999	8.3322e-05	0.000000000000000E+000	8.3322e-05	0.0000000E+000	2	-0.000818113
1	0	0	0	0	0	180.682	-1	0.753132	-0.999953	-2.77753e-05	-0.000138873	0.00109802	-0.000138873	5	6.16188e-07	-1.1403e-07	4433.09	3512.37	0.899999	0.000138873	0.000000000000000E+000	0.000138873	0.0000000E+000	2	-0.000753097
1	0	0	0	0	0	180.882	-1	0.694064	-0.999923	-2.77754e-05	-0.000194423	0.00104247	-0.000194423	5	6.16188e-07	-1.53389e-07	4433.09	3475.21	0.899999	0.000194423	0.000000000000000E+000	0.000194423	0.0000000E+000	2	-0.000694011
1	0	0	0	0	0	181.082	-1	0.639251	-0.999873	-2.77755e-05	-0.000249974	0.000986919	-0.000249974	5	6.16188e-07	-1.89649e-07	4433.09	3512.27	0.899999	0.000249974	0.000000000000000E+000	0.000249974	0.0000000E+000	2	-0.00063917
1	0	0	0	0	0	181.282	-1	0.587738	-0.999888	-2.77754e-05	-0.000305525	0.000931368	-0.000305525	5	6.16188e-07	-2.23003e-07	4433.09	3574.19	0.899999	0.000305525	0.000000000000000E+000	0.000305525	0.0000000E+000	2	-0.000587673
1	0	0	0	0	0	181.482	-1	0.53879	-0.999908	-2.77754e-05	-0.000361076	0.000875817	-0.000361076	5	6.16188e-07	-2.53605e-07	4433.09	3644.37	0.9	0.000361076	0.000000000000000E+000	0.000361076	0.0000000E+000	2	-0.00053874
1	0	0	0	0	0	181.682	-1	0.491937	-0.999885	-2.77754e-05	-0.000416627	0.000820266	-0.000416627	5	6.16188e-07	-2.81576e-07	4433.09	3716.81	0.9	0.000416627	0.000000000000000E+000	0.000416627	0.0000000E+000	2	-0.00049188
1	0	0	0	0	0	181.882	-1	0.446782	-0.999915	-2.77755e-05	-0.000472178	0.000764715	-0.000472178	5	6.16188e-07	-3.07017e-07	4433.09	3788.47	0.9	0.000472178	0.000000000000000E+000	0.000472178	0.0000000E+000	2	-0.000446744
1	0	0	0	0	0	182.082	-1	0.40309	-0.999877	-2.77753e-05	-0.000527728	0.000709165	-0.000527728	5	6.16188e-07	-3.30011e-07	4433.09	3858.44	0.9	0.000527728	0.000000000000000E+000	0.000527728	0.0000000E+000	2	-0.00040304
1	0	0	0	0	0	182.282	-1	0.360636	-0.999908	-2.77753e-05	-0.000583279	0.000653614	-0.000583279	5	6.16188e-07	-3.5063e-07	4433.09	3926.09	0.9	0.000583279	0.000000000000000E+000	0.000583279	0.0000000E+000	2	-0.000360603
1	0	0	0	0	0	182.482	-1	0.319342	-0.999885	-2.77753e-05	-0.000638829	0.000598063	-0.000638829	5	6.16188e-07	-3.68939e-07	4433.09	3991.79	0.9	0.000638829	0.000000000000000E+000	0.000638829	0.0000000E+000	2	-0.000319305
1	0	0	0	0	0	182.682	-1	0.279069	-0.999881	-2.77753e-05	-0.00069438	0.000542513	-0.00069438	5	6.16188e-07	-3.84998e-07	4433.09	4055.42	0.9	0.00069438	0.000000000000000E+000	0.00069438	0.0000000E+000	2	-0.000279035
1	0	0	0	0	0	182.882	-1	0.239731	-0.999865	-2.77752e-05	-0.000749931	0.000486962	-0.000749931	5	6.16188e-07	-3.98858e-07	4433.09	4117.11	0.9	0.000749931	0.000000000000000E+000	0.000749931	0.0000000E+000	2	-0.000239699
1	0	0	0	0	0	183.082	-1	0.201313	-0.999938	-2.77754e-05	-0.000805481	0.000431412	-0.000805481	5	6.16188e-07	-4.10572e-07	4433.09	4177.34	0.9	0.000805481	0.000000000000000E+000	0.000805481	0.0000000E+000	2	-0.000201301
1	0	0	0	0	0	183.282	-1	0.163687	-0.999919	-2.77754e-05	-0.000861032	0.000375861	-0.000861032	5	6.16188e-07	-4.20185e-07	4433.09	4235.84	0.9	0.000861032	0.000000000000000E+000	0.000861032	0.0000000E+000	2	-0.000163674
1	0	0	0	0	0	183.482	-1	0.126887	-0.999911	-2.77753e-05	-0.000916583	0.00032031	-0.000916583	5	6.16188e-07	-4.27742e-07	4433.09	4293.22	0.9	0.000916583	0.000000000000000E+000	0.000916583	0.0000000E+000	2	-0.000126876
1	0	0	0	0	0	183.682	-1	0.0908525	-0.999915	-2.77753e-05	-0.000972133	0.00026476	-0.000972133	5	6.16188e-07	-4.33287e-07	4433.09	4349.49	0.9	0.000972133	0.000000000000000E+000	0.000972133	0.0000000E+000	2	-9.08448e-05
1	0	0	0	0	0	183.882	-1	0.0555499	-0.999881	-2.77753e-05	-0.00102768	0.000209209	-0.00102768	5	6.16188e-07	-4.3686e-07	4433.09	4404.77	0.9	0.00102768	0.000000000000000E+000	0.00102768	0.0000000E+000	2	-5.55432e-05
1	0	0	0	0	0	184.082	-1	0.0209372	-0.999892	-2.77753e-05	-0.00108323	0.000153659	-0.00108323	5	6.16188e-07	-4.38502e-07	4433.09	4459.11	0.9	0.00108323	0.000000000000000E+000	0.00108323	0.0000000E+000	2	-2.0935e-05
1	1	0	1	1	1	184.155	1	0.00838919	0.927945	-4.00023e-09	-4.00023e-09	0.000133379	-4.00023e-09	6	0.000000000000000E+000	-3.35587e-14	0.000000000000000E+000	0.000000000000000E+000	0.9	4.00023e-09	0.000000000000000E+000	4.00023e-09	0.0000000E+000	3	7.78471e-06
1	1	0	1	0	1	184.355	1	0.120056	1.00019	2.77826e-05	5.55611e-05	0.000188944	5.55611e-05	6	5.79487e-09	-3.35587e-14	6343.74	0.000000000000000E+000	0.9	0.000000000000000E+000	5.55611e-05	5.55611e-05	0.0000000E+000	3	0.000120079
1	1	0	1	0	1	184.555	1	0.174922	1.00015	2.77826e-05	0.000111126	0.000244509	0.000111126	6	1.47697e-08	-3.35587e-14	4630.5	0.000000000000000E+000	0.9	0.000000000000000E+000	0.000111126	0.000111126	0.0000000E+000	3	0.000174948
1	1	0	1	0	1	184.755	1	0.226171	1.00015	2.77825e-05	0.000166691	0.000300074	0.000166691	6	2.66338e-08	-3.35587e-14	4359.71	0.000000000000000E+000	0.9	0.000000000000000E+000	0.000166691	0.000166691	0.0000000E+000	3	0.000226206
1	1	0	1	0	1	184.955	1	0.275364	1.00018	2.77825e-05	0.000222256	0.000355639	0.000222256	6	4.12568e-08	-3.35587e-14	4282.47	0.000000000000000E+000	0.9	0.000000000000000E+000	0.000222256	0.000222256	0.0000000E+000	3	0.000275413
1	1	0	1	0	1	185.155	1	0.323096	1.00016	2.77824e-05	0.000277821	0.000411204	0.000277821	6	5.85511e-08	-3.35587e-14	4263.8	0.000000000000000E+000	0.9	0.000000000000000E+000	0.000277821	0.000277821	0.0000000E+000	3	0.000323147
1	1	0	1	0	1	185.355	1	0.369845	1.00017	2.77823e-05	0.000333386	0.000466768	0.000333386	6	7.84552e-08	-3.35587e-14	4266.3	0.000000000000000E+000	0.9	0.000000000000000E+000	0.000333386	0.000333386	0.0000000E+000	3	0.000369909
1	1	0	1	0	1	185.555	1	0.415755	1.00016	2.77823e-05	0.00038895	0.000522333	0.00038895	6	1.0092e-07	-3.35587e-14	4279.04	0.000000000000000E+000	0.9	0.000000000000000E+000	0.00038895	0.00038895	0.0000000E+000	3	0.000415823
1	1	0	1	0	1	185.755	1	0.461113	1.00012	2.77822e-05	0.000444515	0.000577897	0.000444515	6	1.25914e-07	-3.35587e-14	4294.99	0.000000000000000E+000	0.9	0.000000000000000E+000	0.000444515	0.000444515	0.0000000E+000	3	0.000461169
1	1	0	1	0	1	185.955	1	0.506008	1.00011	2.77822e-05	0.000500079	0.000633462	0.000500079	6	1.53407e-07	-3.35587e-14	4312.26	0.000000000000000E+000	0.9	0.000000000000000E+000	0.000500079	0.000500079	0.0000000E+000	3	0.000506061
1	1	0	1	0	1	186.155	1	0.550542	1.00013	2.77821e-05	0.000555643	0.000689026	0.000555643	6	1.8338e-07	-3.35587e-14	4329.55	0.000000000000000E+000	0.9	0.000000000000000E+000	0.000555643	0.000555643	0.0000000E+000	3	0.000550615
1	1	0	1	0	1	186.355	1	0.594825	1.00016	2.7782e-05	0.000611207	0.00074459	0.000611207	6	2.15817e-07	-3.35587e-14	4345.95	0.000000000000000E+000	0.9	0.000000000000000E+000	0.000611207	0.000611207	0.0000000E+000	3	0.000594923
1	1	0	1	0	1	186.555	1	0.638956	1.00014	2.7782e-05	0.000666771	0.000800154	0.000666771	6	2.50707e-07	-3.35587e-14	4360.92	0.000000000000000E+000	0.9	0.000000000000000E+000	0.000666771	0.000666771	0.0000000E+000	3	0.000639044
1	1	0	1	0	1	186.755	1	0.683001	1.00016	2.77821e-05	0.000722336	0.000855718	0.000722336	6	2.88046e-07	-3.35587e-14	4374.3	0.000000000000000E+000	0.9	0.000000000000000E+000	0.000722336	0.000722336	0.0000000E+000	3	0.000683113
1	1	0	1	0	1	186.955	1	0.726963	1.00018	2.77819e-05	0.000777899	0.000911282	0.000777899	6	3.27828e-07	-3.35587e-14	4386.4	0.000000000000000E+000	0.9	0.000000000000000E+000	0.000777899	0.000777899	0.0000000E+000	3	0.000727093
1	1	0	1	0	1	187.155	1	0.770939	1.00018	2.7782e-05	0.000833463	0.000966846	0.000833463	6	3.70054e-07	-3.35587e-14	4396.86	0.000000000000000E+000	0.899999	0.000000000000000E+000	0.000833463	0.000833463	0.0000000E+000	3	0.00077108
1	1	0	1	0	1	187.355	1	0.814992	1.00018	2.7782e-05	0.000889027	0.00102241	0.000889027	6	4.14726e-07	-3.35587e-14	4405.57	0.000000000000000E+000	0.899999	0.000000000000000E+000	0.000889027	0.000889027	0.0000000E+000	3	0.000815135
1	1	0	1	0	1	187.555	1	0.859138	1.00015	2.7782e-05	0.000944592	0.00107797	0.000944592	6	4.61849e-07	-3.35587e-14	4412.77	0.000000000000000E+000	0.899999	0.000000000000000E+000	0.000944592	0.000944592	0.0000000E+000	3	0.000859266
1	1	0	1	0	1	187.755	1	0.903378	1.00017	2.7782e-05	0.00100016	0.00113354	0.00100016	6	5.1143e-07	-3.35587e-14	4418.67	0.000000000000000E+000	0.899999	0.000000000000000E+000	0.00100016	0.00100016	0.0000000E+000	3	0.000903533
1	1	0	1	0	1	187.955	1	0.947539	1.00015	2.77819e-05	0.00105572	0.0011891	0.00105572	6	5.63466e-07	-3.35587e-14	4424.37	0.000000000000000E+000	0.899999	0.000000000000000E+000	0.00105572	0.00105572	0.0000000E+000	3	0.000947684
1	1	0	1	0	1	188.146	1	0.990256	1.00019	2.51148e-05	0.00110862	0.001242	0.00110862	6	6.15271e-07	-3.35587e-14	4425.96	0.000000000000000E+000	0.899999	0.000000000000000E+000	0.00110862	0.00110862	0.0000000E+000	3	0.000990449
1	0	0	0	0	1	188.246	-1	0.895643	-0.999938	-2.77754e-05	-2.77713e-05	0.00121423	-2.77713e-05	7	6.15275e-07	-2.48769e-08	4425.98	0.000000000000000E+000	0.899999	2.77713e-05	0.000000000000000E+000	2.77713e-05	0.0000000E+000	3	-0.000895587
1	0	0	0	0	1	188.446	-1	0.818337	-0.9999	-2.77756e-05	-8.33225e-05	0.00115868	-8.33225e-05	7	6.15275e-07	-7.13297e-08	4425.98	3880.55	0.899999	8.33225e-05	0.000000000000000E+000	8.33225e-05	0.0000000E+000	3	-0.000818255
1	0	0	0	0	1	188.646	-1	0.753289	-0.999953	-2.77756e-05	-0.000138874	0.00110312	-0.000138874	7	6.15275e-07	-1.14054e-07	4425.98	3512.19	0.899999	0.000138874	0.000000000000000E+000	0.000138874	0.0000000E+000	3	-0.000753254
1	0	0	0	0	1	188.846	-1	0.694234	-0.999915	-2.77756e-05	-0.000194425	0.00104757	-0.000194425	7	6.15275e-07	-1.53422e-07	4425.98	3475.32	0.899999	0.000194425	0.000000000000000E+000	0.000194425	0.0000000E+000	3	-0.000694176
1	0	0	0	0	1	189.046	-1	0.639447	-0.999946	-2.77759e-05	-0.000249977	0.000992022	-0.000249977	7	6.15275e-07	-1.89693e-07	4425.98	3512.72	0.899999	0.000249977	0.000000000000000E+000	0.000249977	0.0000000E+000	3	-0.000639412
1	0	0	0	0	1	189.246	-1	0.58791	-0.999892	-2.77759e-05	-0.000305528	0.00093647	-0.000305528	7	6.15275e-07	-2.23058e-07	4425.98	3574.3	0.899999	0.000305528	0.000000000000000E+000	0.000305528	0.0000000E+000	3	-0.000587847
1	0	0	0	0	1	189.446	-1	0.538974	-0.999888	-2.77759e-05	-0.00036108	0.000880919	-0.00036108	7	6.15275e-07	-2.5367e-07	4425.98	3644.6	0.9	0.00036108	0.000000000000000E+000	0.00036108	0.0000000E+000	3	-0.000538914
1	0	0	0	0	1	189.646	-1	0.492111	-0.999908	-2.77758e-05	-0.000416632	0.000825367	-0.000416632	7	6.15275e-07	-2.81652e-07	4425.98	3716.94	0.9	0.000416632	0.000000000000000E+000	0.000416632	0.0000000E+000	3	-0.000492066
1	0	0	0	0	1	189.846	-1	0.446944	-0.999934	-2.77759e-05	-0.000472184	0.000769815	-0.000472184	7	6.15275e-07	-3.07103e-07	4425.98	3788.49	0.9	0.000472184	0.000000000000000E+000	0.000472184	0.0000000E+000	3	-0.000446915
1	0	0	0	0	1	190.046	-1	0.403234	-0.999927	-2.77755e-05	-0.000527735	0.000714264	-0.000527735	7	6.15275e-07	-3.30105e-07	4425.98	3858.32	0.9	0.000527735	0.000000000000000E+000	0.000527735	0.0000000E+000	3	-0.000403204
1	0	0	0	0	1	190.246	-1	0.360816	-0.999892	-2.77756e-05	-0.000583286	0.000658713	-0.000583286	7	6.15275e-07	-3.50734e-07	4425.98	3926.24	0.9	0.000583286	0.000000000000000E+000	0.000583286	0.0000000E+000	3	-0.000360777
1	0	0	0	0	1	190.446	-1	0.319489	-0.999911	-2.77755e-05	-0.000638837	0.000603162	-0.000638837	7	6.15275e-07	-3.69052e-07	4425.98	3991.71	0.9	0.000638837	0.000000000000000E+000	0.000638837	0.0000000E+000	3	-0.00031946
1	0	0	0	0	1	190.646	-1	0.279216	-0.99993	-2.77756e-05	-0.000694388	0.000547611	-0.000694388	7	6.15275e-07	-3.85119e-07	4425.98	4055.35	0.9	0.000694388	0.000000000000000E+000	0.000694388	0.0000000E+000	3	-0.000279197
1	0	0	0	0	1	190.846	-1	0.239898	-0.999946	-2.77756e-05	-0.000749939	0.000492059	-0.000749939	7	6.15275e-07	-3.98988e-07	4425.98	4117.16	0.9	0.000749939	0.000000000000000E+000	0.000749939	0.0000000E+000	3	-0.000239884
1	0	0	0	0	1	191.046	-1	0.201474	-0.99993	-2.77755e-05	-0.00080549	0.000436508	-0.00080549	7	6.15275e-07	-4.10711e-07	4425.98	4177.36	0.9	0.00080549	0.000000000000000E+000	0.00080549	0.0000000E+000	3	-0.00020146
1	0	0	0	0	1	191.246	-1	0.163886	-0.999923	-2.77755e-05	-0.000861041	0.000380957	-0.000861041	7	6.15275e-07	-4.20334e-07	4425.98	4236.07	0.9	0.000861041	0.000000000000000E+000	0.000861041	0.0000000E+000	3	-0.000163873
1	0	0	0	0	1	191.446	-1	0.127056	-0.999911	-2.77755e-05	-0.000916592	0.000325406	-0.000916592	7	6.15275e-07	-4.27901e-07	4425.98	4293.29	0.9	0.000916592	0.000000000000000E+000	0.000916592	0.0000000E+000	3	-0.000127045
1	0	0	0	0	1	191.646	-1	0.0909963	-0.999938	-2.77754e-05	-0.000972143	0.000269855	-0.000972143	7	6.15275e-07	-4.33454e-07	4425.98	4349.42	0.9	0.000972143	0.000000000000000E+000	0.000972143	0.0000000E+000	3	-9.09907e-05
1	0	0	0	0	1	191.846	-1	0.0557194	-0.999919	-2.77754e-05	-0.00102769	0.000214305	-0.00102769	7	6.15275e-07	-4.37037e-07	4425.98	4404.84	0.9	0.00102769	0.000000000000000E+000	0.00102769	0.0000000E+000	3	-5.57149e-05
1	0	0	0	0	1	192.046	-1	0.021103	-0.999942	-2.77753e-05	-0.00108324	0.000158754	-0.00108324	7	6.15275e-07	-4.38687e-07	4425.98	4459.15	0.9	0.00108324	0.000000000000000E+000	0.00108324	0.0000000E+000	3	-2.11018e-05
1	0	0	0	0	1	192.12	-1	0.00623534	-0.999892	-2.05537e-05	-0.0011038	0.000138201	-0.0011038	7	6.15275e-07	-4.38816e-07	4425.98	4467.81	0.9	0.0011038	0.000000000000000E+000	0.0011038	99.5654	3	-6.23467e-06